Folder: broken-quality-initiative/data

Note: README.md
![Broken quality logo vertical - no subtitle test](https://github.com/user-attachments/assets/d00b7ed8-5ad1-4d87-951c-e2d8e5432393)

Welcome to the official GitHub repository of The Broken Quality Initiative [www.brokenquality.com](https://www.brokenquality.com/). Here, you'll find the datasets and Python code associated with the essays found on the [Broken Quality Bookshelf](https://www.brokenquality.com/bookshelf). 

The datasets found in the [data folder](https://github.com/jimlehner/broken-quality-initiative/tree/main/data) use the following naming convetion:

**essay_name-dataset_name**

As an example, the dataset associated with the essay **Network Analysis: Advancing the utility of SPC** has the name **network_analysis_advancing_spc-manufacturing_process_data**.

The code used to generate the figures found in each essay are named in accordance with the the essay. These files can be found in the [Python code folder](https://github.com/jimlehner/broken-quality-initiative/tree/main/code).

## Table of Contents

1. [Essays](#essays)
2. [How to use this repository](#how-to-use-this-repository)
3. [Bias correction and scaling factor tables](#bias-correction-and-scaling-factor-tables)
4. [Filing bugs](#filing-bugs)
5. [Contributing](#contributing)
6. [About The Broken Quality Initiative](#about-the-broken-quality-initiative)
7. [Contact](#contact)

## Essays
The essays on The Broken Quality Initiative Bookshelf include:
- **The definition of quality**: Quality has become an overused term of little substance. This essay is about how the current state of quality came to be and what we can do to fix it. There is no dataset associated with this essay. [The definition of quality](https://static1.squarespace.com/static/5b722db6f2e6b1ad5053391b/t/67a11f3deb559c2a30f66348/1738612541895/The+definition+of+quality.pdf)
- **Understanding the process capability indices**: The process capability indices have become a standard method by which processes are graded. This essay explains the process capability indices and the context that is required to put them to use. [Understanding the process capability indices](https://static1.squarespace.com/static/5b722db6f2e6b1ad5053391b/t/67a113ff741c0305cbcaf1db/1738609665034/Understanding+the+process+capability+indices.pdf)
- **On writing, reports, & process behavior charts**: An essay outlining the advantages of written reports over PowerPoint. [On writing, reports, & process behavior charts](https://static1.squarespace.com/static/5b722db6f2e6b1ad5053391b/t/678682b0985aa0078fb3b983/1736868529394/On-writing-reports-and-process-behavior-charts.pdf)
- **Network Analysis: Advancing the utility of SPC**: Network analysis updates the tried and true methods of Statistcal Process Control (SPC) and process behavior charts (control charts) such that they reflect the modern business and industrial ecosystems. [Network Analysis: Advancing the utility of SPC](https://static1.squarespace.com/static/5b722db6

File: tensile_strength_of_steel_strand.csv
Company No.,Tensile Strength of Steel Strand
1,"12,600"
1,"13,750"
1,"13,440"
1,"13,960"
1,"13,570"
1,"13,550"
1,"13,570"
1,"13,430"
1,"13,250"
1,"13,320"
1,"13,800"
1,"14,250"
1,"13,370"
1,"13,510"
1,"13,110"
1,"13,400"
1,"13,860"
1,"13,440"
1,"13,900"
1,"13,910"
2,"14,300"
2,"13,900"
2,"14,460"
2,"14,480"
2,"14,170"
2,"13,610"
2,"13,990"
2,"14,140"
2,"13,400"
2,"14,290"
2,"14,550"
2,"14,250"
2,"13,390"
2,"14,130"
2,"13,910"
2,"13,180"
2,"13,790"
2,"13,810"
2,"13,260"
2,"14,550"